File: 2/raman_con.txt
;
; High resolution cross section file : C:/Users/admin/Desktop/1018/raman.txt
; Calibration file : C:/Users/admin/Desktop/1018/SN1804011U1/Hg_U0008499_calibrated_solar.clb
; Shift applied : 0 nm
; Convolution type : Standard convolution
; Slit function type : Gaussian (FTS)
; Gaussian FWHM : 0.536
;
; Columns description :
; Column 1 : calibration;
; Column 2 : convoluted cross section;
;
297.492 7.98485e+13
297.619 7.86952e+13
297.746 7.86522e+13
297.873 7.99233e+13
298 8.21655e+13
298.127 8.45931e+13
298.253 8.63148e+13
298.38 8.66835e+13
298.507 8.55069e+13
298.634 8.30979e+13
298.761 8.01761e+13
298.887 7.76289e+13
299.014 7.61591e+13
299.141 7.59486e+13
299.267 7.65652e+13
299.394 7.72661e+13
299.52 7.7535e+13
299.647 7.74052e+13
299.773 7.72618e+13
299.9 7.73292e+13
300.026 7.73899e+13
300.153 7.70129e+13
300.279 7.60174e+13
300.405 7.469e+13
300.532 7.35537e+13
300.658 7.29329e+13
300.784 7.27355e+13
300.91 7.26314e+13
301.037 7.23994e+13
301.163 7.211e+13
301.289 7.20605e+13
301.415 7.25942e+13
301.541 7.39155e+13
301.667 7.59411e+13
301.793 7.82525e+13
301.919 8.02429e+13
302.045 8.14419e+13
302.171 8.18182e+13
302.297 8.17964e+13
302.423 8.19531e+13
302.548 8.26758e+13
302.674 8.40603e+13
302.8 8.59915e+13
302.926 8.82156e+13
303.051 9.04089e+13
303.177 9.23415e+13
303.303 9.40283e+13
303.428 9.56564e+13
303.554 9.73155e+13
303.679 9.88134e+13
303.805 9.9776e+13
303.93 9.99228e+13
304.056 9.9258e+13
304.181 9.80701e+13
304.307 9.68117e+13
304.432 9.59049e+13
304.557 9.54972e+13
304.682 9.53324e+13
304.808 9.49346e+13
304.933 9.40225e+13
305.058 9.27876e+13
305.183 9.17757e+13
305.308 9.14862e+13
305.433 9.2017e+13
305.558 9.29812e+13
305.684 9.36983e+13
305.809 9.35573e+13
305.933 9.23946e+13
306.058 9.06545e+13
306.183 8.91512e+13
306.308 8.856e+13
306.433 8.90202e+13
306.558 9.01362e+13
306.683 9.13207e+13
306.807 9.21973e+13
306.932 9.27845e+13
307.057 9.33735e+13
307.181 9.42396e+13
307.306 9.54351e+13
307.431 9.67892e+13
307.555 9.80538e+13
307.68 9.90538e+13
307.804 9.97335e+13
307.929 1.00083e+14
308.053 1.00033e+14
308.177 9.94554e+13
308.302 9.83097e+13
308.426 9.67902e+13
308.55 9.5273e+13
308.675 9.4084e+13
308.799 9.33003e+13
308.923 9.27411e+13
309.047 9.2101e+13
309.171 9.11302e+13
309.295 8.98115e+13
309.42 8.84516e+13
309.544 8.75735e+13
309.668 8.76262e+13
309.792 8.87046e+13
309.915 9.04783e+13
310.039 9.23803e+13
310.163 9.39488e+13
310.287 9.50977e+13
310.411 9.61181e+13
310.535 9.74285e+13
310.658 9.92977e+13
310.782 1.01724e+14
310.906 1.04471e+14
311.03 1.07194e+14
311.153 1.09593e+14
311.277 1.11518e+14
311.4 1.12978e+14
311.524 1.14038e+14
311.647 1.14705e+14
311.771 1.14886e+14
311.894 1.14451e+14
312.018 1.13358e+14
312.141 1.11748e+14
312.264 1.09947e+14
312.388 1.08345e+14
312.511 1.0724e+14
312.634 1.06754e+14
312.757 1.06862e+14
312.88 1.07452e+14
313.004 1.08346e+14
313.127 1.09286e+14
313.25 1.09954e+14
313.373 1.10074e+14
313.496 1.09536e+14
313.619 1.08504e+14
313.742 1.07401e+14
313.865 1.06772e+14
313.988 1.07033e+14
314.11 1.08225e+14
314.233 1.09905e+14
314.356 1.11272e+14
314.479 1.11542e+14
314.601 1.10341e+14
314.724 1.0788e+14
314.847 1.048e+14
314.969 1.01843e+14
315.092 9.95886e+13
315.214 9.83561e+13
315.337 9.82215e+13
315.459 9.90541e+13
315.582 1.00528e+14
315.704 1.02164e+14
315.827 1.03457e+14
315.949 1.04078e+14
316.071 1.04021e+14
316.194 1.03606e+14
316.316 1.03296e+14
316.438 1.03461e+14
316.56 1.0421e+14
316.683 1.05372e+14
316.805 1.06639e+14
316.927 1.07753e+14
317.049 1.08641e+14
317.171 1.09418e+14
317.293 1.10285e+14
317.415 1.11423e+14
317.537 1.12926e+14
317.659 1.14755e+14
317.78 1.16666e+14
317.902 1.18216e+14
318.024 1.18901e+14
318.146 1.1839e+14
318.268 1.16698e+14
318.389 1.14198e+14
318.511 1.11497e+14
318.633 1.09281e+14
318.754 1.08157e+14
318.876 1.08502e+14
318.997 1.10303e+14
319.119 1.13116e+14
319.24 1.16211e+14
319.362 1.18892e+14
319.483 1.20777e+14
319.604 1.21872e+14
319.726 1.22434e+14
319.847 1.22762e+14
319.968 1.23036e+14
320.09 1.23286e+14
320.211 1.23481e+14
320.332 1.23659e+14
320.453 1.23975e+14
320.574 1.24642e+14
320.695 1.25781e+14
320.816 1.27304e+14
320.937 1.2888e+14
321.058 1.30035e+14
321.179 1.30311e+14
321.3 1.29441e+14
321.421 1.2744e+14
321.542 1.24607e+14
321.662 1.21454e+14
321.783 1.18564e+14
321.904 1.16438e+14
322.025 1.15345e+14
322.145 1.15264e+14
322.266 1.15941e+14
322.387 1.17018e+14
322.507 1.18142e+14
322.628 1.19005e+14
322.748 1.19382e+14
322.869 1.1919e+14
322.989 1.18561e+14
323.109 1.17815e+14
323.23 1.17313e+14
323.35 1.17275e+14
323.47 1.17688e+14
323.591 1.18385e+14
323.711 1.19186e+14
323.831 1.20017e+14
323.951 1.2093e+14
324.071 1.22052e+14
324.191 1.23524e+14
324.311 1.25446e+14
324.431 1.27867e+14
324.551 1.30757e+14
324.671 1.33981e+14
324.791 1.37289e+14
324.911 1.40373e+14
325.031 1.42973e+14
325.151 1.44964e+14
325.271 1.4638e+14
325.39 1.47401e+14
325.51 1.48306e+14
325.63 1.49396e+14
325.749 1.50904e+14
325.869 1.5293e+14
325.989 1.55413e+14
326.108 1.58147e+14
326.228 1.60815e+14
326.347 1.63071e+14
326.467 1.64662e+14
326.586 1.65528e+14
326.705 1.65814e+14
326.825 1.65756e+14
326.944 1.65537e+14
327.063 1.65205e+14
327.183 1.64731e+14
327.302 1.64112e+14
327.421 1.63421e+14
327.54 1.62767e+14
327.659 1.62232e+14
327.778 1.61852e+14
327.897 1.61651e+14
328.016 1.6168e+14
328.135 1.62018e+14
328.254 1.62732e+14
328.373 1.63801e+14
328.492 1.65069e+14
328.611 1.66269e+14
328.73 1.67143e+14
328.848 1.67596e+14
328.967 1.67756e+14
329.086 1.67886e+14
329.204 1.68224e+14
329.323 1.68869e+14
329.442 1.69765e+14
329.56 1.70767e+14
329.679 1.71733e+14
329.797 1.72608e+14
329.916 1.73449e+14
330.034 1.74366e+14
330.152 1.75398e+14
330.271 1.76421e+14
330.389 1.77156e+14
330.507 1.77276e+14
330.626 1.76573e+14
330.744 1.75075e+14
330.862 1.73064e+14
330.98 1.70963e+14
331.098 1.69136e+14
331.216 1.67739e+14
331.334 1.66712e+14
331.452 1.6589e+14
331.57 1.65163e+14
331.688 1.64554e+14
331.806 1.64178e+14
331.924 1.6411e+14
332.042 1.64282e+14
332.16 1.64481e+14
332.277 1.64456e+14
332.395 1.64073e+14
332.513 1.63382e+14
332.63 1.62559e+14
332.748 1.6178e+14
332.866 1.61145e+14
332.983 1.60712e+14
333.101 1.60559e+14
333.218 1.60773e+14
333.336 1.61362e+14
333.453 1.62172e+14
333.57 1.62919e+14
333.688 1.63335e+14
333.805 1.63304e+14
333.922 1.62902e+14
334.04 1.62324e+14
334.157 1.6179e+14
334.274 1.61501e+14
334.391 1.61611e+14
334.508 1.62176e+14
334.625 1.63075e+14
334.742 1.63968e+14
334.859 1.64395e+14
334.976 1.63983e+14
335.093 1.62655e+14
335.21 1.60698e+14
335.327 1.58655e+14
335.444 1.5711e+14
335.56 1.56461e+14
335.677 1.56734e+14
335.794 1.57515e+14
335.91 1.58061e+14
336.027 1.57615e+14
336.144 1.55804e+14
336.26 1.52875e+14
336.377 1.49596e+14
336.493 1.46884e+14
336.61 1.45372e+14
336.726 1.45166e+14
336.843 1.45888e+14
336.959 1.46915e+14
337.075 1.4766e+14
337.191 1.478e+14
337.308 1.47378e+14
337.424 1.46776e+14
337.54 1.46549e+14
337.656 1.4716e+14
337.772 1.48733e+14
337.888 1.50981e+14
338.004 1.53361e+14
338.12 1.55354e+14
338.236 1.56705e+14
338.352 1.57481e+14
338.468 1.57985e+14
338.584 1.58595e+14
338.7 1.59626e+14
338.816 1.61241e+14
338.931 1.63408e+14
339.047 1.65886e+14
339.163 1.68264e+14
339.278 1.70081e+14
339.394 1.70997e+14
339.51 1.70939e+14
339.625 1.70134e+14
339.741 1.69006e+14
339.856 1.68024e+14
339.972 1.67557e+14
340.087 1.67779e+14
340.202 1.68637e+14
340.318 1.69896e+14
340.433 1.71239e+14
340.548 1.72377e+14
340.663 1.73122e+14
340.779 1.73428e+14
340.894 1.73388e+14
341.009 1.73174e+14
341.124 1.72933e+14
341.239 1.72692e+14
341.354 1.72329e+14
341.469 1.71681e+14
341.584 1.70693e+14
341.699 1.69523e+14
341.814 1.68505e+14
341.928 1.67993e+14
342.043 1.68187e+14
342.158 1.69023e+14
342.273 1.70195e+14
342.387 1.71279e+14
342.502 1.71899e+14
342.616 1.71839e+14
342.731 1.71086e+14
342.846 1.69797e+14
342.96 1.6822e+14
343.074 1.66582e+14
343.189 1.65023e+14
343.303 1.63615e+14
343.418 1.62444e+14
343.532 1.61663e+14
343.646 1.61436e+14
343.76 1.61809e+14
343.875 1.6261e+14
343.989 1.63456e+14
344.103 1.63877e+14
344.217 1.63496e+14
344.331 1.62164e+14
344.445 1.60004e+14
344.559 1.57344e+14
344.673 1.5462e+14
344.787 1.5227e+14
344.901 1.50661e+14
345.015 1.50019e+14
345.128 1.50397e+14
345.242 1.51698e+14
345.356 1.53747e+14
345.47 1.56355e+14
345.583 1.59323e+14
345.697 1.62395e+14
345.811 1.6523e+14
345.924 1.67451e+14
346.038 1.68757e+14
346.151 1.69036e+14
346.264 1.68405e+14
346.378 1.67143e+14
346.491 1.65587e+14
346.605 1.64048e+14
346.718 1.62792e+14
346.831 1.62057e+14
346.944 1.62034e+14
347.057 1.62797e+14
347.171 1.64221e+14
347.284 1.65971e+14
347.397 1.67571e+14
347.51 1.68559e+14
347.623 1.68649e+14
347.736 1.67837e+14
347.849 1.66386e+14
347.962 1.64702e+14
348.074 1.63159e+14
348.187 1.6198e+14
348.3 1.61227e+14
348.413 1.60896e+14
348.525 1.61003e+14
348.638 1.61617e+14
348.751 1.62791e+14
348.863 1.6447e+14
348.976 1.66457e+14
349.088 1.68485e+14
349.201 1.70315e+14
349.313 1.71807e+14
349.426 1.72892e+14
349.538 1.73524e+14
349.65 1.73667e+14
349.763 1.7335e+14
349.875 1.72726e+14
349.987 1.72071e+14
350.099 1.71712e+14
350.212 1.7191e+14
350.324 1.72785e+14
350.436 1.74294e+14
350.548 1.7627e+14
350.66 1.78486e+14
350.772 1.80699e+14
350.884 1.8268e+14
350.996 1.84202e+14
351.107 1.85042e+14
351.219 1.85004e+14
351.331 1.83992e+14
351.443 1.82097e+14
351.554 1.79644e+14
351.666 1.77152e+14
351.778 1.75197e+14
351.889 1.74223e+14
352.001 1.74393e+14
352.112 1.75555e+14
352.224 1.77313e+14
352.335 1.79154e+14
352.447 1.80599e+14
352.558 1.81335e+14
352.669 1.81314e+14
352.781 1.80754e+14
352.892 1.80041e+14
353.003 1.79563e+14
353.114 1.79578e+14
353.225 1.80171e+14
353.336 1.81296e+14
353.448 1.82853e+14
353.559 1.84724e+14
353.67 1.86796e+14
353.78 1.88954e+14
353.891 1.91076e+14
354.002 1.93041e+14
354.113 1.94726e+14
354.224 1.96042e+14
354.335 1.96955e+14
354.445 1.97505e+14
354.556 1.97777e+14
354.667 1.97871e+14
354.777 1.97872e+14
354.888 1.9784e+14
354.998 1.97795e+14
355.109 1.9769e+14
355.219 1.97399e+14
355.33 1.96744e+14
355.44 1.95556e+14
355.551 1.9375e+14
355.661 1.91356e+14
355.771 1.88512e+14
355.881 1.85438e+14
355.992 1.82411e+14
356.102 1.79733e+14
356.212 1.77648e+14
356.322 1.76252e+14
356.432 1.75419e+14
356.542 1.74828e+14
356.652 1.74074e+14
356.762 1.72786e+14
356.872 1.70717e+14
356.982 1.67777e+14
357.091 1.64051e+14
357.201 1.59808e+14
357.311 1.55476e+14
357.421 1.51573e+14
357.53 1.48595e+14
357.64 1.46894e+14
357.75 1.466e+14
357.859 1.4759e+14
357.969 1.49535e+14
358.078 1.51998e+14
358.187 1.54563e+14
358.297 1.56911e+14
358.406 1.58836e+14
358.516 1.6022e+14
358.625 1.61009e+14
358.734 1.61236e+14
358.843 1.61038e+14
358.952 1.60654e+14
359.062 1.60361e+14
359.171 1.60394e+14
359.28 1.60875e+14
359.389 1.61821e+14
359.498 1.6318e+14
359.607 1.64896e+14
359.716 1.66937e+14
359.824 1.69301e+14
359.933 1.71973e+14
360.042 1.74887e+14
360.151 1.77893e+14
360.259 1.80766e+14
360.368 1.83242e+14
360.477 1.85085e+14
360.585 1.86132e+14
360.694 1.86307e+14
360.802 1.85616e+14
360.911 1.84156e+14
361.019 1.82135e+14
361.128 1.79872e+14
361.236 1.77763e+14
361.344 1.76196e+14
361.453 1.75441e+14
361.561 1.75557e+14
361.669 1.76352e+14
361.777 1.77425e+14
361.885 1.78296e+14
361.994 1.78579e+14
362.102 1.7812e+14
362.21 1.7704e+14
362.318 1.75678e+14
362.425 1.74485e+14
362.533 1.73925e+14
362.641 1.74369e+14
362.749 1.75999e+14
362.857 1.78726e+14
362.965 1.82166e+14
363.072 1.85733e+14
363.18 1.88801e+14
363.288 1.90898e+14
363.395 1.91816e+14
363.503 1.91639e+14
363.61 1.90681e+14
363.718 1.89394e+14
363.825 1.88275e+14
363.932 1.87775e+14
364.04 1.88216e+14
364.147 1.89729e+14
364.254 1.92236e+14
364.362 1.95473e+14
364.469 1.99061e+14
364.576 2.02587e+14
364.683 2.05682e+14
364.79 2.08092e+14
364.897 2.09715e+14
365.004 2.10619e+14
365.111 2.11014e+14
365.218 2.1119e+14
365.325 2.11436e+14
365.432 2.11977e+14
365.539 2.12943e+14
365.645 2.14382e+14
365.752 2.16283e+14
365.859 2.18597e+14
365.965 2.21241e+14
366.072 2.24088e+14
366.179 2.26966e+14
366.285 2.2968e+14
366.392 2.32035e+14
366.498 2.33874e+14
366.605 2.35091e+14
366.711 2.35629e+14
366.817 2.3548e+14
366.924 2.34699e+14
367.03 2.33421e+14
367.136 2.31864e+14
367.242 2.30295e+14
367.348 2.28971e+14
367.454 2.28071e+14
367.56 2.27647e+14
367.666 2.27627e+14
367.772 2.27849e+14
367.878 2.28134e+14
367.984 2.28344e+14
368.09 2.28436e+14
368.196 2.28451e+14
368.302 2.28466e+14
368.407 2.28528e+14
368.513 2.28597e+14
368.619 2.28556e+14
368.724 2.28268e+14
368.83 2.27665e+14
368.936 2.26795e+14
369.041 2.25811e+14
369.147 2.249e+14
369.252 2.24194e+14
369.357 2.23726e+14
369.463 2.23453e+14
369.568 2.2332e+14
369.673 2.23333e+14
369.778 2.2359e+14
369.884 2.24257e+14
369.989 2.25491e+14
370.094 2.27354e+14
370.199 2.29744e+14
370.304 2.32371e+14
370.409 2.34793e+14
370.514 2.36516e+14
370.619 2.371e+14
370.724 2.3627e+14
370.829 2.3398e+14
370.933 2.30441e+14
371.038 2.26089e+14
371.143 2.2152e+14
371.247 2.17386e+14
371.352 2.14268e+14
371.457 2.12562e+14
371.561 2.12387e+14
371.666 2.1354e+14
371.77 2.15522e+14
371.875 2.17625e+14
371.979 2.19097e+14
372.083 2.19325e+14
372.188 2.18001e+14
372.292 2.15194e+14
372.396 2.11304e+14
372.5 2.06923e+14
372.604 2.02665e+14
372.709 1.99039e+14
372.813 1.9639e+14
372.917 1.94876e+14
373.021 1.94467e+14
373.125 1.94935e+14
373.228 1.95866e+14
373.332 1.96717e+14
373.436 1.96941e+14
373.54 1.9614e+14
373.644 1.94194e+14
373.747 1.9132e+14
373.851 1.88026e+14
373.955 1.84975e+14
374.058 1.82801e+14
374.162 1.81938e+14
374.265 1.82514e+14
374.369 1.84341e+14
374.472 1.86988e+14
374.576 1.89892e+14
374.679 1.92483e+14
374.782 1.94293e+14
374.885 1.95045e+14
374.989 1.9472e+14
375.092 1.93571e+14
375.195 1.92077e+14
375.298 1.90832e+14
375.401 1.90391e+14
375.504 1.9112e+14
375.607 1.93103e+14
375.71 1.96156e+14
375.813 1.99917e+14
375.916 2.03986e+14
376.019 2.08041e+14
376.121 2.11898e+14
376.224 2.1549e+14
376.327 2.18814e+14
376.429 2.21878e+14
376.532 2.24669e+14
376.635 2.27157e+14
376.737 2.29308e+14
376.84 2.31098e+14
376.942 2.32525e+14
377.044 2.33623e+14
377.147 2.34455e+14
377.249 2.35102e+14
377.351 2.35642e+14
377.454 2.3612e+14
377.556 2.3655e+14
377.658 2.36917e+14
377.76 2.37201e+14
377.862 2.37413e+14
377.964 2.37606e+14
378.066 2.37873e+14
378.168 2.38325e+14
378.27 2.39048e+14
378.372 2.4007e+14
378.474 2.4133e+14
378.576 2.42678e+14
378.677 2.43919e+14
378.779 2.44861e+14
378.881 2.45384e+14
378.982 2.4547e+14
379.084 2.45191e+14
379.185 2.44664e+14
379.287 2.43989e+14
379.388 2.43203e+14
379.49 2.42262e+14
379.591 2.41054e+14
379.693 2.3944e+14
379.794 2.37313e+14
379.895 2.34647e+14
379.996 2.31526e+14
380.097 2.2814e+14
380.199 2.24741e+14
380.3 2.21577e+14
380.401 2.18826e+14
380.502 2.16558e+14
380.603 2.14751e+14
380.704 2.13335e+14
380.804 2.12242e+14
380.905 2.11438e+14
381.006 2.10909e+14
381.107 2.10613e+14
381.208 2.10443e+14
381.308 2.10211e+14
381.409 2.09689e+14
381.51 2.08672e+14
381.61 2.07041e+14
381.711 2.0478e+14
381.811 2.01961e+14
381.911 1.98709e+14
382.012 1.95174e+14
382.112 1.91509e+14
382.212 1.87859e+14
382.313 1.84343e+14
382.413 1.81042e+14
382.513 1.77991e+14
382.613 1.75196e+14
382.713 1.7266e+14
382.813 1.70416e+14
382.913 1.68526e+14
383.013 1.67061e+14
383.113 1.66062e+14
383.213 1.65526e+14
383.313 1.65404e+14
383.413 1.65621e+14
383.513 1.6608e+14
383.612 1.66673e+14
383.712 1.67273e+14
383.812 1.67749e+14
383.911 1.67994e+14
384.011 1.67961e+14
384.11 1.67699e+14
384.21 1.67354e+14
384.309 1.67131e+14
384.409 1.67248e+14
384.508 1.67877e+14
384.607 1.69114e+14
384.706 1.70967e+14
384.806 1.73372e+14
384.905 1.7622e+14
385.004 1.79386e+14
385.103 1.82753e+14
385.202 1.86216e+14
385.301 1.89679e+14
385.4 1.93033e+14
385.499 1.96147e+14
385.598 1.98852e+14
385.697 2.00961e+14
385.796 2.02299e+14
385.894 2.02757e+14
385.993 2.02333e+14
386.092 2.01162e+14
386.19 1.99506e+14
386.289 1.97698e+14
386.387 1.96077e+14
386.486 1.94905e+14
386.584 1.94323e+14
386.683 1.94336e+14
386.781 1.94826e+14
386.88 1.95593e+14
386.978 1.96401e+14
387.076 1.97038e+14
387.174 1.97368e+14
387.272 1.97375e+14
387.371 1.97164e+14
387.469 1.96919e+14
387.567 1.96832e+14
387.665 1.97046e+14
387.763 1.97618e+14
387.861 1.98524e+14
387.958 1.99692e+14
388.056 2.0104e+14
388.154 2.02509e+14
388.252 2.04058e+14
388.349 2.05651e+14
388.447 2.07233e+14
388.545 2.08722e+14
388.642 2.10018e+14
388.74 2.11031e+14
388.837 2.11709e+14
388.935 2.12078e+14
389.032 2.1224e+14
389.129 2.12361e+14
389.227 2.12625e+14
389.324 2.13195e+14
389.421 2.1419e+14
389.518 2.15669e+14
389.616 2.17644e+14
389.713 2.20087e+14
389.81 2.22937e+14
389.907 2.26108e+14
390.004 2.29477e+14
390.101 2.32885e+14
390.198 2.36139e+14
390.294 2.3903e+14
390.391 2.41351e+14
390.488 2.42938e+14
390.585 2.43697e+14
390.681 2.43626e+14
390.778 2.42812e+14
390.875 2.41405e+14
390.971 2.39592e+14
391.068 2.3755e+14
391.164 2.35424e+14
391.26 2.33311e+14
391.357 2.31259e+14
391.453 2.29276e+14
391.549 2.27332e+14
391.646 2.25371e+14
391.742 2.2332e+14
391.838 2.21102e+14
391.934 2.18656e+14
392.03 2.15961e+14
392.126 2.13059e+14
392.222 2.1006e+14
392.318 2.07134e+14
392.414 2.04475e+14
392.51 2.02258e+14
392.606 2.00594e+14
392.702 1.99501e+14
392.797 1.98905e+14
392.893 1.98652e+14
392.989 1.98538e+14
393.084 1.98343e+14
393.18 1.97862e+14
393.275 1.96934e+14
393.371 1.9547e+14
393.466 1.93468e+14
393.561 1.91022e+14
393.657 1.88312e+14
393.752 1.8558e+14
393.847 1.83087e+14
393.943 1.81071e+14
394.038 1.79701e+14
394.133 1.79057e+14
394.228 1.79127e+14
394.323 1.79832e+14
394.418 1.8105e+14
394.513 1.82649e+14
394.608 1.84506e+14
394.703 1.8652e+14
394.797 1.88605e+14
394.892 1.90692e+14
394.987 1.92712e+14
395.082 1.94608e+14
395.176 1.96337e+14
395.271 1.97879e+14
395.365 1.99244e+14
395.46 2.00476e+14
395.554 2.01655e+14
395.649 2.02897e+14
395.743 2.04333e+14
395.838 2.06084e+14
395.932 2.08232e+14
396.026 2.10802e+14
396.12 2.13759e+14
396.214 2.17012e+14
396.309 2.20423e+14
396.403 2.2382e+14
396.497 2.27011e+14
396.591 2.29794e+14
396.685 2.31974e+14
396.779 2.33382e+14
396.872 2.33914e+14
396.966 2.33558e+14
397.06 2.32408e+14
397.154 2.30658e+14
397.247 2.28575e+14
397.341 2.26465e+14
397.435 2.24638e+14
397.528 2.2338e+14
397.622 2.22935e+14
397.715 2.23493e+14
397.809 2.25182e+14
397.902 2.28055e+14
397.995 2.32088e+14
398.089 2.37173e+14
398.182 2.43132e+14
398.275 2.49735e+14
398.368 2.56728e+14
398.461 2.63865e+14
398.554 2.70934e+14
398.647 2.77777e+14
398.74 2.84289e+14
398.833 2.90421e+14
398.926 2.9616e+14
399.019 3.01521e+14
399.112 3.06529e+14
399.204 3.1121e+14
399.297 3.15575e+14
399.39 3.19619e+14
399.483 3.23323e+14
399.575 3.26666e+14
399.668 3.29635e+14
399.76 3.32248e+14
399.853 3.34557e+14
399.945 3.36646e+14
400.037 3.38613e+14
400.13 3.4054e+14
400.222 3.42471e+14
400.314 3.44387e+14
400.406 3.46218e+14
400.498 3.47864e+14
400.591 3.49233e+14
400.683 3.5027e+14
400.775 3.5097e+14
400.867 3.51386e+14
400.958 3.51605e+14
401.05 3.51727e+14
401.142 3.51838e+14
401.234 3.51995e+14
401.326 3.52225e+14
401.417 3.52526e+14
401.509 3.52878e+14
401.601 3.53247e+14
401.692 3.53602e+14
401.784 3.53918e+14
401.875 3.54186e+14
401.967 3.54407e+14
402.058 3.54598e+14
402.149 3.54781e+14
402.241 3.54976e+14
402.332 3.55208e+14
402.423 3.555e+14
402.514 3.5588e+14
402.605 3.56374e+14
402.696 3.56989e+14
402.787 3.577e+14
402.878 3.5844e+14
402.969 3.59094e+14
403.06 3.5952e+14
403.151 3.59572e+14
403.242 3.59141e+14
403.333 3.58184e+14
403.423 3.56744e+14
403.514 3.54953e+14
403.605 3.53002e+14
403.695 3.51109e+14
403.786 3.49479e+14
403.876 3.48276e+14
403.967 3.47596e+14
404.057 3.47453e+14
404.147 3.47777e+14
404.238 3.48413e+14
404.328 3.49148e+14
404.418 3.49749e+14
404.508 3.50008e+14
404.598 3.49786e+14
404.688 3.49042e+14
404.778 3.47841e+14
404.868 3.46335e+14
404.958 3.44722e+14
405.048 3.43196e+14
405.138 3.41903e+14
405.228 3.40926e+14
405.318 3.40281e+14
405.407 3.39939e+14
405.497 3.39838e+14
405.587 3.39914e+14
405.676 3.40107e+14
405.766 3.40378e+14
405.855 3.40705e+14
405.945 3.41071e+14
406.034 3.41453e+14
406.124 3.41809e+14
406.213 3.42086e+14
406.302 3.42225e+14
406.391 3.42181e+14
406.481 3.41941e+14
406.57 3.41538e+14
406.659 3.41053e+14
406.748 3.40597e+14
406.837 3.40279e+14
406.926 3.40181e+14
407.015 3.40346e+14
407.103 3.40782e+14
407.192 3.41469e+14
407.281 3.42361e+14
407.37 3.43394e+14
407.458 3.44489e+14
407.547 3.4556e+14
407.636 3.46518e+14
407.724 3.47285e+14
407.813 3.47806e+14
407.901 3.48062e+14
407.99 3.48071e+14
408.078 3.47876e+14
408.166 3.47527e+14
408.254 3.47063e+14
408.343 3.46507e+14
408.431 3.45874e+14
408.519 3.45182e+14
408.607 3.44472e+14
408.695 3.43808e+14
408.783 3.43277e+14
408.827 3.43089e+14